Folder: OpenSpecy-package/inst/extdata

Note: inst/extdata/raman_hdpe.yml
wavenumber:
- 301.04
- 304.632
- 308.221
- 311.81
- 315.398
- 318.983
- 322.566
- 326.15
- 329.732
- 333.311
- 336.889
- 340.467
- 344.042
- 347.618
- 351.19
- 354.76
- 358.332
- 361.9
- 365.466
- 369.031
- 372.597
- 376.16
- 379.721
- 383.28
- 386.839
- 390.396
- 393.951
- 397.505
- 401.058
- 404.61
- 408.16
- 411.708
- 415.256
- 418.801
- 422.346
- 425.887
- 429.429
- 432.97
- 436.507
- 440.044
- 443.581
- 447.116
- 450.647
- 454.18
- 457.708
- 461.238
- 464.764
- 468.291
- 471.815
- 475.339
- 478.859
- 482.379
- 485.899
- 489.416
- 492.931
- 496.447
- 499.96
- 503.471
- 506.981
- 510.489
- 513.999
- 517.503
- 521.009
- 524.51
- 528.014
- 531.513
- 535.014
- 538.51
- 542.008
- 545.502
- 548.997
- 552.488
- 555.979
- 559.469
- 562.955
- 566.442
- 569.928
- 573.411
- 576.894
- 580.376
- 583.854
- 587.331
- 590.811
- 594.286
- 597.759
- 601.231
- 604.705
- 608.174
- 611.642
- 615.109
- 618.574
- 622.038
- 625.503
- 628.966
- 632.426
- 635.884
- 639.342
- 642.798
- 646.252
- 649.706
- 653.158
- 656.608
- 660.058
- 663.506
- 666.953
- 670.398
- 673.842
- 677.285
- 680.727
- 684.165
- 687.602
- 691.04
- 694.476
- 697.911
- 701.345
- 704.775
- 708.204
- 711.634
- 715.063
- 718.49
- 721.912
- 725.336
- 728.76
- 732.18
- 735.599
- 739.018
- 742.434
- 745.849
- 749.265
- 752.675
- 756.088
- 759.498
- 762.906
- 766.313
- 769.719
- 773.124
- 776.527
- 779.929
- 783.33
- 786.729
- 790.127
- 793.524
- 796.919
- 800.312
- 803.705
- 807.097
- 810.485
- 813.874
- 817.262
- 820.647
- 824.032
- 827.416
- 830.797
- 834.179
- 837.557
- 840.936
- 844.312
- 847.688
- 851.061
- 854.433
- 857.806
- 861.175
- 864.543
- 867.91
- 871.278
- 874.642
- 878.005
- 881.367
- 884.728
- 888.087
- 891.445
- 894.802
- 898.157
- 901.511
- 904.864
- 908.216
- 911.567
- 914.914
- 918.262
- 921.609
- 924.954
- 928.296
- 931.639
- 934.981
- 938.32
- 941.659
- 944.995
- 948.332
- 951.665
- 954.999
- 958.33
- 961.66
- 964.991
- 968.318
- 971.644
- 974.971
- 978.295
- 981.617
- 984.94
- 988.258
- 991.578
- 994.896
- 998.212
- 1001.53
- 1004.84
- 1008.15
- 1011.46
- 1014.77
- 1018.08
- 1021.39
- 1024.7
- 1028.0
- 1031.3
- 1034.61
- 1037.91
- 1041.21
- 1044.51
- 1047.8
- 1051.1
- 1054.39
- 1057.68
- 1060.98
- 1064.27
- 1067.56
- 1070.84
- 1074.13
- 1077.42
- 1080.7
- 1083.98
- 1087.27
- 1090.55
- 1093.83
- 1097.1
- 1100.38
- 1103.65
- 1106.93
- 1110.2
- 1113.47
- 1116.74
- 1120.01
- 1123.28
- 1126.55
- 1129.81
- 1133.08
- 1136.34
- 1139.6
- 1142.86
- 1146.12
- 1149.37
- 1152.63
- 1155.89
- 1159.14
- 1162.39
- 1165.64
- 1168.89
- 1172.14
- 1175.39
- 1178.64
- 1181.88
- 1185.12
- 1188.37
- 1191.61
- 1194.85
- 1198.09
- 1201.32
- 1204.56
- 1207.79
- 1211.03
- 1214.26
- 1217.49
- 1220.72
- 1223.95
- 1227.18
- 1230.4
- 1233.63
- 1236.85
- 1240.07
- 1243.3
- 1246.52
- 1249.74
- 1252.95
- 1256.17
- 1259.38
- 1262.6
- 1265.81
- 1269.02
- 1272.23
- 1275.44
- 1278.65
- 1281.85
- 1285.06
- 1288.26
- 1291.46
- 1294.67
- 1297.87
- 1301.07
- 1304.26
- 1307.46
- 1310.66
- 1313.85
- 1317.04
- 1320.23
- 1323

Note: README.md
# Open Specy

Analyze, Process, Identify, and Share, Raman and (FT)IR Spectra

<!-- badges: start -->
[![CRAN version](https://www.r-pkg.org/badges/version/OpenSpecy)](https://CRAN.R-project.org/package=OpenSpecy) 
[![Project Status](https://www.repostatus.org/badges/latest/active.svg)](https://www.repostatus.org/#active)
[![R-CMD-check](https://github.com/wincowgerDEV/OpenSpecy/workflows/R-CMD-check/badge.svg)](https://github.com/wincowgerDEV/OpenSpecy/actions)
[![License: CC BY 4.0](https://img.shields.io/badge/license-CC%20BY%204.0-lightgrey.svg)](https://creativecommons.org/licenses/by/4.0/)
[![Website](https://img.shields.io/badge/web-openspecy.org-white)](https://wincowger.shinyapps.io/OpenSpecy/)
[![Twitter Follow](https://img.shields.io/twitter/follow/OpenSpecy)](https://twitter.com/OpenSpecy)
<!-- badges: end -->

Raman and (FT)IR spectral analysis tool for plastic particles and
other environmental samples. Supported features include reading spectral
data files (.asp, .csv, .jdx, .spc, .spa, .0), Savitzky-Golay smoothing of
spectral intensities with `smooth_intens()`, correcting background noise with
`subtr_bg()` in accordance with Zhao et al. (2007, doi: 
[dbhfsj](https://doi.org/dbhfsj)),
and identifying spectra using an onboard reference library (Cowger et al. 2020,
doi: [f3sk](https://doi.org/f3sk)). Analyzed spectra can be shared with the Open
Specy community. A Shiny app is available via `run_app()` or online at
[http://www.openspecy.org](https://wincowger.shinyapps.io/OpenSpecy/).

## Installation

**OpenSpecy** is available from CRAN and GitHub.

### Install from CRAN (stable version)

You can install the latest release of **OpenSpecy** from
[CRAN](https://CRAN.R-project.org) with:

```r
install.packages("OpenSpecy")
```

### Install from GitHub (development version)

To install the development version of this package, paste the following code
into your R console (requires **devtools**):

```r
if (!require(devtools)) install.packages("devtools")
devtools::install_github("wincowgerDEV/OpenSpecy")
```

## Getting started
```r
library(OpenSpecy)
run_app()
```

See
[package vignette](https://htmlpreview.github.io/?https://github.com/wincowgerDEV/OpenSpecy/blob/main/vignettes/sop.html)
for a detailed standard operating procedure.

## Workflow

```r
library(dplyr)

# Fetch current spectral library from https://osf.io/x7dpz/
get_lib()

# Load library into global environment
spec_lib <- load_lib()

# Read sample spectrum
raman_hdpe <- read_text(read_extdata("raman_hdpe.csv"))

# Share your spectrum with the Open Spey community
share_spec(raman_hdpe,
           metadata = c(user_name = "Win Cowger",
                        contact_info = "wincowger@gmail.com",
                        spectrum_type = "Raman",
                        spectrum_identity = "HDPE")
           )

# Adjust spectral intensity
raman_adj <- raman_hdpe %>%
  adj_intens()

# Smooth and background-correct spectrum
raman_proc <- raman_adj %>% 
  smooth_intens() %>% 
  s

File: raman_hdpe.csv
Wavelength,Absorbance
150.92,3264.21
163.463,3418.66
175.988,3375.29
188.493,3388.36
200.983,3430.75
213.455,3463.18
225.907,3476.48
238.343,3452.98
250.762,3342.03
263.162,3354.89
275.544,3379.16
287.909,3420.14
300.258,3471.46
312.588,3416.15
324.9,3547.65
337.195,3591.92
349.472,3766.32
361.732,3842.41
373.975,3787.94
386.2,3717.66
398.408,3799.8
410.599,3765.81
422.773,3773.93
434.928,3814.7
447.067,3730.75
459.188,3703.46
471.292,3728
483.379,4201.9
495.448,3644.24
507.501,3653.01
519.536,3621.28
531.555,3671.57
543.557,3726.62
555.541,3703.67
567.508,3683.79
579.459,3729.83
591.393,3694.01
603.31,3725.23
615.209,3748.32
627.091,3665.55
638.957,3756.22
650.806,3754.2
662.639,3736.25
674.455,3754.32
686.253,3810.9
698.034,3740.78
709.8,3855.1
721.548,3894.65
733.281,3969.3
744.995,3877.25
756.694,3876.08
768.376,3956.42
780.042,3933.17
791.692,3940.04
803.324,4018.78
814.94,3984.75
826.54,4082.99
838.122,4039.33
849.69,4110.62
861.24,4168.75
872.773,4168.61
884.291,4158.38
895.793,4156.5
907.277,4149.62
918.747,4161.15
930.199,4124.66
941.635,4018.72
953.055,4066.72
964.461,4083.1
975.848,4075.94
987.22,4128.6
998.575,4167.49
1009.91,4195.68
1021.24,4178.74
1032.55,4280.16
1043.84,4390.87
1055.11,4988.05
1066.37,8896.85
1077.62,5141.34
1088.84,4969.94
1100.06,4734.25
1111.25,4613.36
1122.43,5228.33
1133.6,8653.49
1144.74,4812.58
1155.88,4414.83
1167,4717.06
1178.1,4860.99
1189.18,4316.6
1200.25,4343.21
1211.31,4284.87
1222.34,4345.17
1233.37,4329.46
1244.38,4352.33
1255.37,4358.12
1266.34,4633.41
1277.31,4722.72
1288.25,5271.36
1299.18,11323.1
1310.09,5720.17
1320.99,5010.53
1331.88,4686.74
1342.75,4452.15
1353.6,4489.75
1364.44,4595.51
1375.26,4881.58
1386.06,4466.42
1396.86,4405.78
1407.63,4546.19
1418.4,7210.9
1429.14,6118.29
1439.87,9476.78
1450.59,8510.2
1461.29,7819.6
1471.98,6887.81
1482.64,5277.77
1493.3,4765.08
1503.94,4548.29
1514.57,4494.3
1525.18,4559.84
1535.77,4485.72
1546.35,4451.56
1556.92,4544.85
1567.47,4504.51
1578,4458.71
1588.52,4403.55
1599.03,4420.86
1609.52,4491.46
1620,4455.89
1630.46,4392.87
1640.9,4471.13
1651.34,4465.97
1661.75,4490.6
1672.16,4484.04
1682.54,4442.74
1692.92,4449.58
1703.28,4432.35
1713.62,4453.37
1723.95,4414.41
1734.27,4463.29
1744.57,4414.69
1754.85,4456.95
1765.12,4515.53
1775.38,4565.34
1785.62,4428.16
1795.85,4472.48
1806.06,4496.12
1816.26,4414.74
1826.45,4417.08
1836.62,4426.78
1846.77,4416.92
1856.91,4423.56
1867.04,4362.08
1877.15,4450.22
1887.25,4393.92
1897.34,4406.73
1907.41,4408.88
1917.46,4428.04
1927.5,4345.13
1937.53,4392.21
1947.55,4422.37
1957.55,4463.09
1967.53,4378.03
1977.5,4449.46
1987.46,4360.16
1997.4,4349.33
2007.33,4380.97
2017.25,4401.78
2027.15,4395.92
2037.04,4385.66
2046.91,4380.55
2056.77,4346.29
2066.61,4337.32
2076.45,4412.13
2086.26,4359.85
2096.07,4392.29
2105.86,4383.29
2115.63,4364.17
2125.39,4436.17
2135.14,4394.83
2144.88,4334.17
2154.6,4320.91
2164.31,4331.1
2174,4392.43
2183.68,4509.69
2193.35,4463.2
2203,4326.21
2212.64,4280.81
2222.27,4254.67
2231.88,4296.89
2241.48,4205.56
2251.06,4250.8
2260.63,4179.94
2270.19,4193.99
2279.74,4201.99
2289.27,4218.91
2298.78,4152.76
2308.29,4180.63
2317.78,4150.83
2327.26,4116.43
2336.72,4120.4
2346.17,4116.92
2355.61,4139.57
2365.03,4105.69
2374.44,4074.17
2383.84,4099.93
2393.23,4115.02
2402.6,4143.36
2411.96,4175.21
2421.3,4286.39
2430.63,4548.49
2439.95,4772.09
2449.25,4477.12
2458.55,4253.34
2467.83,4163.95
2477.09,4168.45
2486.35,4092.52
2495.58,4059.72
2504.81,4057.58
2514.02,4064.78
2523.23,4076.44
2532.41,4023.74
2541.59,4079.02
2550.75,4047.05
2559.9,4031.15
2569.04,4065.52
2578.16,4075.31
2587.27,4206.24
2596.37,4257.18
2605.45,4299.17
2614.52,4331.82
2623.58,4283.71
2632.63,4283.22
2641.66,4332.86
2650.68,4423.32
2659.69,4477.75
2668.69,4379.71
2677.67,4436.91
2686.64,4490.84
2695.6,4673.72
2704.54,4977.89
2713.47,5562.59
2722.39,6098.09
2731.3,5862.7
2740.19,4967.94
2749.08,4561.44
2757.95,4380
2766.8,4320.21
2775.65,4312.34
2784.48,4363.04
2793.3,4363.7
2802.11,4424.72
2809.47,4587.13
2818.38,4870.18
2827.27,5869.27
2836.15,10035.8
2845.03,24083.3
2853.89,30169.5
2862.74,21585.8
2871.57,18532.1
2880.4,31989.9
2889.22,35937.3
2898.02,21630.9
2906.82,18187.2
2915.6,14340
2924.37,12831.3
2933.13,12081.7
2941.88,9578.88
2950.62,6344.02
2959.35,5076.34
2968.07,4455.67
2976.77,4274.31
2985.47,4176.24
2994.15,4075.13
2998.49,4059.37